{
   "@graph": [
      {
         "resourceType": "fhir:MedicationAdministration",
         "id": "medadmin0301",
         "contained": [
            [
               {
                  "resourceType": "fhir:Medication",
                  "id": "med0301",
                  "@id": "#med0301"
               },
               {
                  "resourceType": "fhir:Provenance",
                  "id": "signature",
                  "target": [
                     [
                        {
                           "reference": "ServiceRequest/physiotherapy",
                           "@id": "_:bn2_1"
                        }
                     ],
                     {
                        "fhir:ordered": [
                           "_:bn2_1"
                        ]
                     }
                  ],
                  "agent": [
                     [
                        {
                           "role": [
                              [
                                 {
                                    "coding": [
                                       [
                                          {
                                             "system": "http://terminology.hl7.org/CodeSystem/v3-ParticipationType",
                                             "code": "AUT",
                                             "@id": "_:bn5_1",
                                             "@type": "http://terminology.hl7.org/CodeSystem/v3-ParticipationType/AUT"
                                          }
                                       ],
                                       {
                                          "fhir:ordered": [
                                             "_:bn5_1"
                                          ]
                                       }
                                    ],
                                    "@id": "_:bn5_1"
                                 }
                              ],
                              {
                                 "fhir:ordered": [
                                    "_:bn5_1"
                                 ]
                              }
                           ],
                           "who": [
                              {
                                 "@id": "../Practitioner/example",
                                 "@type": "fhir:Practitioner"
                              },
                              {
                                 "reference": "Practitioner/example",
                                 "display": "Dr Adam Careful"
                              }
                           ],
                           "@id": "_:bn5_1"
                        }
                     ],
                     {
                        "fhir:ordered": [
                           "_:bn5_1"
                        ]
                     }
                  ],
                  "@id": "#signature"
               }
            ],
            {
               "fhir:ordered": [
                  "#med0301",
                  "#signature"
               ]
            }
         ],
         "status": "in-progress",
         "medicationReference": [
            {
               "@id": "../#med0301",
               "@type": "fhir:#med0301"
            },
            {
               "reference": "#med0301"
            }
         ],
         "subject": [
            {
               "@id": "../Patient/pat1",
               "@type": "fhir:Patient"
            },
            {
               "reference": "Patient/pat1",
               "display": "Donald Duck"
            }
         ],
         "encounter": [
            {
               "@id": "../Encounter/f001",
               "@type": "fhir:Encounter"
            },
            {
               "reference": "Encounter/f001",
               "display": "encounter who leads to this prescription"
            }
         ],
         "occurencePeriod": {
            "start": "2015-01-15T14:30:00+01:00"
         },
         "performer": [
            [
               {
                  "actor": [
                     {
                        "@id": "../Practitioner/f007",
                        "@type": "fhir:Practitioner"
                     },
                     {
                        "reference": "Practitioner/f007",
                        "display": "Patrick Pump"
                     }
                  ],
                  "@id": "_:bn6_1"
               }
            ],
            {
               "fhir:ordered": [
                  "_:bn6_1"
               ]
            }
         ],
         "request": [
            {
               "@id": "../MedicationRequest/medrx0318",
               "@type": "fhir:MedicationRequest"
            },
            {
               "reference": "MedicationRequest/medrx0318"
            }
         ],
         "eventHistory": [
            [
               {
                  "reference": "#signature",
                  "display": "Author's Signature",
                  "@id": "_:bn7_1"
               }
            ],
            {
               "fhir:ordered": [
                  "_:bn7_1"
               ]
            }
         ],
         "@id": "MedicationAdministration/medadmin0301",
         "fhir:nodeRole": "fhir:treeRoot"
      },
      {
         "@id": "MedicationAdministration/medadmin0301.ttl",
         "owl:versionIRI": "MedicationAdministration/medadmin0301.ttl",
         "owl:imports": "fhir:fhir.ttl"
      }
   ],
   "@context": [
      "https://fhircat.org/fhir/contexts/r5/medicationadministration.context.jsonld",
      "https://fhircat.org/fhir/contexts/r5/root.context.jsonld",
      {
         "nodeRole": {
            "@type": "@id",
            "@id": "fhir:nodeRole"
         },
         "@base": "http://build.fhir.org/",
         "owl:imports": {
            "@type": "@id"
         },
         "owl:versionIRI": {
            "@type": "@id"
         },
         "fhir:ordered": {
            "@type": "@id",
            "@container": "@list"
         }
      }
   ]
}